File: Proyecto/DRX/7060.csv
[Measurement conditions]
Sample identification,7060
Comment - 1,"Configuration=Plataforma Reflexion-Transmision spinner, Owner=User-1, Creation date=2/3/2023 7:20:03 AM"
Comment - 2,"Goniometer=Omega/2Theta; Minimum step size 2Theta:0.0001; Minimum step size Omega:0.0001"
Comment - 3,"Sample stage=Reflection-transmission spinner; Minimum step size Phi:0.1"
Comment - 4,"Diffractometer system=EMPYREAN"
Comment - 5,"Measurement program=C:\PANalytical\Data Collector\Programs\DRX01-005-5-80.xrdmp, Identifier={F6BCA4AE-3CE5-429B-BFE0-24F75AE8A160}"
Comment - 6,"Batch program=C:\PANalytical\Data Collector\Programs\DRX-11-03-2025.xrdmp, Identifier={AA0EBF15-5E9A-4A2E-A19D-1EE3EE637F25}"
Anode material,Cu
K-Alpha1 wavelength,1.5406
K-Alpha2 wavelength,1.54443
Ratio K-Alpha2/K-Alpha1,0.500
Divergence slit,Fixed,0.5
Monochromator used,NO
Generator voltage, 45
Tube current, 40
File date and time,11/Mar/2025 12:27
Unit cell,
h k l, 0 0 0
Scan axis,Gonio
Scan range,5,80.0002
Scan step size,0.0525211
No. of points, 1428
Scan type,CONTINUOUS
Phi,206.2
Time per step,43.605
[Scan points]
Angle,Intensity
5.02626,3482.0
5.07878,3438.0
5.1313,3397.0
5.18382,3350.0
5.23635,3270.0
5.28887,3417.0
5.34139,3228.0
5.39391,3303.0
5.44643,3223.0
5.49895,3253.0
5.55147,3152.0
5.60399,3131.0
5.65651,3099.0
5.70904,3159.0
5.76156,3137.0
5.81408,3086.0
5.8666,3238.0
5.91912,3194.0
5.97164,3251.0
6.02416,3171.0
6.07668,3106.0
6.1292,3191.0
6.18173,3122.0
6.23425,3116.0
6.28677,3152.0
6.33929,3198.0
6.39181,3072.0
6.44433,3124.0
6.49685,3139.0
6.54937,3072.0
6.60189,3154.0
6.65442,3105.0
6.70694,3293.0
6.75946,3091.0
6.81198,3095.0
6.8645,3081.0
6.91702,3136.0
6.96954,3180.0
7.02206,3137.0
7.07458,3186.0
7.12711,3085.0
7.17963,3199.0
7.23215,3157.0
7.28467,3217.0
7.33719,3192.0
7.38971,3142.0
7.44223,3100.0
7.49475,3148.0
7.54727,3049.0
7.5998,3115.0
7.65232,3187.0
7.70484,3045.0
7.75736,3079.0
7.80988,3201.0
7.8624,3156.0
7.91492,3158.0
7.96744,3117.0
8.01996,3250.0
8.07249,3135.0
8.12501,3197.0
8.17753,3199.0
8.23005,3019.0
8.28257,3196.0
8.33509,3080.0
8.38761,3097.0
8.44013,3036.0
8.49265,3181.0
8.54518,3002.0
8.5977,3055.0
8.65022,3094.0
8.70274,2983.0
8.75526,3133.0
8.80778,3024.0
8.8603,3153.0
8.91282,3022.0
8.96535,3064.0
9.01787,3108.0
9.07039,3150.0
9.12291,3015.0
9.17543,3053.0
9.22795,2955.0
9.28047,2932.0
9.33299,3119.0
9.38551,3107.0
9.43804,3060.0
9.49056,3087.0
9.54308,3101.0
9.5956,3005.0
9.64812,2975.0
9.70064,3068.0
9.75316,2929.0
9.80568,3095.0
9.8582,3120.0
9.91073,2915.0
9.96325,2974.0
10.0158,3069.0
10.0683,2956.0
10.1208,2930.0
10.1733,2998.0
10.2259,2911.0
10.2784,2947.0
10.3309,2900.0
10.3834,3019.0
10.4359,2930.0
10.4885,2925.0
10.541,3029.0
10.5935,2920.0
10.646,2972.0
10.6985,2915.0
10.7511,2956.0
10.8036,2833.0
10.8561,2890.0
10.9086,2944.0
10.9611,2970.0
11.0137,2978.0
11.0662,2864.0
11.1187,2904.0
11.1712,3020.0
11.2238,2942.0
11.2763,2899.0
11.3288,2912.0
11.3813,2910.0
11.4338,2886.0
11.4864,2873.0
11.5389,3025.0
11.5914,2881.0
11.6439,2896.0
11.6964,2874.0
11.749,2832.0
11.8015,2859.0
11.854,2850.0
11.9065,2905.0
11.959,2933.0
12.0116,2827.0
12.0641,2822.0
12.1166,2807.0
12.1691,2808.0
12.2217,2884.0
12.2742,2885.0
12.3267,2825.0
12.3792,2922.0
12.4317,2858.0
12.4843,2929.0
12.5368,2715.0
12.5893,2677.0
12.6418,2752.0
12.6943,2866.0
12.7469,2890.0
12.7994,2796.0
12.8519,2730.0
12.9044,2783.0
12.957,2888.0
13.0095,2782.0
13.062,2728.0
13.1145,2760.0
13.167,2731.0
13.2196,2738.0
13.2721,2727.0
13.3246,2772.0
13.3771,2740.0
13.4296,2709.0
13.4822,2774.0
13.5347,2662.0
13.5872,2646.0
13.6397,2757.0
13.6922,2752.0
13.7448,2648.0
13.7973,2685.0
13.8498,2742.0
13.9023,2635.0
13.9549,2714.0
14.0074,2775.0
14.0599,2665.0
14.1124,2690.0
14.1649,2628.0
14.2175,2638.0
14.27,2601.0
14.3225,2610.0
14.375,2664.0
14.4275,2598.0
14.4801,2690.0
14.5326,2693.0
14.5851,2590.0
14.6376,2640.0
14.6901,2614.0
14.7427,2588.0
14.7952,2644.0
14.8477,2665.0
14.9002,2630.0
14.9528,2574.0
15.0053,2628.0
15.0578,2636.0
15.1103,2541.0
15.1628,2660.0
15.2154,2565.0
15.2679,2506.0
15.3204,2554.0
15.3729,2525.0
15.4254,2608.0
15.478,2477.0
15.5305,2452.0
15.583,2617.0
15.6355,2584.0
15.688,2689.0
15.7406,2572.0
15.7931,2505.0
15.8456,2607.0
15.8981,2488.0
15.9507,2617.0
16.0032,2538.0
16.0557,2592.0
16.1082,2536.0
16.1607,2463.0
16.2133,2535.0
16.2658,2549.0
16.3183,2540.0
16.3708,2513.0
16.4233,2569.0
16.4759,2591.0
16.5284,2524.0
16.5809,2531.0
16.6334,2554.0
16.686,2537.0
16.7385,2542.0
16.791,2457.0
16.8435,2452.0
16.896,2497.0
16.9486,2620.0
17.0011,2429.0
17.0536,2400.0
17.1061,2456.0
17.1586,2469.0
17.2112,2427.0
17.2637,2460.0
17.3162,2555.0
17.3687,2487.0
17.4212,2487.0
17.4738,2502.0
17.5263,2440.0
17.5788,2516.0
17.6313,2535.0
17.6839,2527.0
17.7364,2446.0
17.7889,2496.0
17.8414,2439.0
17.8939,2407.0
17.9465,2484.0
17.999,2468.0
18.0515,2481.0
18.104,2421.0
18.1565,2377.0
18.2091,2396.0
18.2616,2385.0
18.3141,2368.0
18.3666,2499.0
18.4191,2453.0
18.4717,2485.0
18.5242,2559.0
18.5767,2375.0
18.6292,2462.0
18.6818,2408.0
18.7343,2400.0
18.7868,2383.0
18.8393,2415.0
18.8918,2421.0
18.9444,2404.0
18.9969,2431.0
19.0494,2478.0
19.1019,2389.0
19.1544,2474.0
19.207,2367.0
19.2595,2374.0
19.312,2434.0
19.3645,2463.0
19.417,2407.0
19.4696,2423.0
19.5221,2501.0
19.5746,2353.0
19.6271,2475.0
19.6797,2341.0
19.7322,2463.0
19.7847,2468.0
19.8372,2436.0
19.8897,2450.0
19.9423,2375.0
19.9948,2348.0
20.0473,2411.0
20.0998,2429.0
20.1523,2435.0
20.2049,2356.0
20.2574,2439.0
20.3099,2472.0
20.3624,2394.0
20.415,2402.0
20.4675,2455.0
20.52,2387.0
20.5725,2415.0
20.625,2302.0
20.6776,2478.0
20.7301,2392.0
20.7826,2398.0
20.8351,2298.0
20.8876,2318.0
20.9402,2378.0
20.9927,2482.0
21.0452,2424.0
21.0977,2383.0
21.1502,2370.0
21.2028,2414.0
21.2553,2333.0
21.3078,2380.0
21.3603,2396.0
21.4129,2515.0
21.4654,2363.0
21.5179,2338.0
21.5704,2351.0
21.6229,2404.0
21.6755,2436.0
21.728,2357.0
21.7805,2399.0
21.833,2447.0
21.8855,2319.0
21.9381,2392.0
21.9906,2373.0
22.0431,2357.0
22.0956,2333.0
22.1481,2469.0
22.2007,2371.0
22.2532,2431.0
22.3057,2457.0
22.3582,2409.0
22.4108,2405.0
22.4633,2409.0
22.5158,2336.0
22.5683,2357.0
22.6208,2391.0
22.6734,2368.0
22.7259,2322.0
22.7784,2419.0
22.8309,2455.0
22.8834,2431.0
22.936,2395.0
22.9885,2387.0
23.041,2468.0
23.0935,2298.0
23.146,2425.0
23.1986,2396.0
23.2511,2470.0
23.3036,2368.0
23.3561,2338.0
23.4087,2351.0
23.4612,2376.0
23.5137,2433.0
23.5662,2323.0
23.6187,2292.0
23.6713,2447.0
23.7238,2305.0
23.7763,2331.0
23.8288,2375.0
23.8813,2261.0
23.9339,2398.0
23.9864,2321.0
24.0389,2338.0
24.0914,2307.0
24.144,2281.0
24.1965,2271.0
24.249,2350.0
24.3015,2362.0
24.354,2228.0
24.4066,2347.0
24.4591,2386.0
24.5116,2279.0
24.5641,2273.0
24.6166,2327.0
24.6692,2346.0
24.7217,2144.0
24.7742,2323.0
24.8267,2291.0
24.8792,2313.0
24.9318,2172.0
24.9843,2300.0
25.0368,2296.0
25.0893,2228.0
25.1419,2240.0
25.1944,2284.0
25.2469,2196.0
25.2994,2233.0
25.3519,2277.0
25.4045,2250.0
25.457,2083.0
25.5095,2221.0
25.562,2293.0
25.6145,2219.0
25.6671,2169.0
25.7196,2224.0
25.7721,2186.0
25.8246,2227.0
25.8771,2226.0
25.9297,2237.0
25.9822,2098.0
26.0347,2151.0
26.0872,2146.0
26.1398,2173.0
26.1923,2152.0
26.2448,2136.0
26.2973,2106.0
26.3498,2140.0
26.4024,2172.0
26.4549,2259.0
26.5074,2096.0
26.5599,2200.0
26.6124,2216.0
26.665,2164.0
26.7175,2165.0
26.77,2106.0
26.8225,2129.0
26.875,2191.0
26.9276,2220.0
26.9801,2106.0
27.0326,2146.0
27.0851,2163.0
27.1377,2196.0
27.1902,2118.0
27.2427,2111.0
27.2952,2135.0
27.3477,2183.0
27.4003,2041.0
27.4528,2148.0
27.5053,2135.0
27.5578,2030.0
27.6103,2020.0
27.6629,2210.0
27.7154,2021.0
27.7679,1983.0
27.8204,2003.0
27.873,2157.0
27.9255,2080.0
27.978,2086.0
28.0305,2065.0
28.083,2044.0
28.1356,2013.0
28.1881,2137.0
28.2406,1994.0
28.2931,2085.0
28.3456,2002.0
28.3982,2102.0
28.4507,1988.0
28.5032,2016.0
28.5557,2021.0
28.6082,1982.0
28.6608,2017.0
28.7133,2076.0
28.7658,2006.0
28.8183,2040.0
28.8709,2025.0
28.9234,1926.0
28.9759,1976.0
29.0284,2002.0
29.0809,2049.0
29.1335,2031.0
29.186,1940.0
29.2385,1966.0
29.291,1986.0
29.3435,1955.0
29.3961,2026.0
29.4486,1949.0
29.5011,1946.0
29.5536,2064.0
29.6061,2031.0
29.6587,2073.0
29.7112,1871.0
29.7637,1999.0
29.8162,1897.0
29.8688,1993.0
29.9213,1893.0
29.9738,1954.0
30.0263,1885.0
30.0788,1928.0
30.1314,1996.0
30.1839,1948.0
30.2364,1936.0
30.2889,1886.0
30.3414,1940.0
30.394,1890.0
30.4465,1901.0
30.499,1901.0
30.5515,1967.0
30.604,1907.0
30.6566,1921.0
30.7091,1870.0
30.7616,1896.0
30.8141,1948.0
30.8667,2017.0
30.9192,1877.0
30.9717,1902.0
31.0242,1931.0
31.0767,1911.0
31.1293,1915.0
31.1818,1902.0
31.2343,1894.0
31.2868,1873.0
31.3393,1940.0
31.3919,1811.0
31.4444,1927.0
31.4969,1910.0
31.5494,1942.0
31.602,2087.0
31.6545,2138.0
31.707,2440.0
31.7595,2870.0
31.812,4053.0
31.8646,6993.0
31.9171,12495.0
31.9696,9406.0
32.0221,6758.0
32.0746,3293.0
32.1272,2434.0
32.1797,2201.0
32.2322,1964.0
32.2847,1939.0
32.3372,1910.0
32.3898,1883.0
32.4423,1779.0
32.4948,1858.0
32.5473,1810.0
32.5999,1801.0
32.6524,1727.0
32.7049,1800.0
32.7574,1799.0
32.8099,1831.0
32.8625,1744.0
32.915,1835.0
32.9675,1772.0
33.02,1756.0
33.0725,1772.0
33.1251,1741.0
33.1776,1780.0
33.2301,1746.0
33.2826,1783.0
33.3351,1736.0
33.3877,1743.0
33.4402,1740.0
33.4927,1784.0
33.5452,1672.0
33.5978,1690.0
33.6503,1781.0
33.7028,1761.0
33.7553,1681.0
33.8078,1706.0
33.8604,1694.0
33.9129,1703.0
33.9654,1738.0
34.0179,1785.0
34.0704,1689.0
34.123,1680.0
34.1755,1642.0
34.228,1694.0
34.2805,1850.0
34.333,1833.0
34.3856,1984.0
34.4381,2405.0
34.4906,3470.0
34.5431,6432.0
34.5957,8049.0
34.6482,5487.0
34.7007,3751.0
34.7532,2168.0
34.8057,1876.0
34.8583,1729.0
34.9108,1743.0
34.9633,1706.0
35.0158,1681.0
35.0683,1727.0
35.1209,1665.0
35.1734,1656.0
35.2259,1530.0
35.2784,1629.0
35.331,1618.0
35.3835,1592.0
35.436,1619.0
35.4885,1657.0
35.541,1520.0
35.5936,1624.0
35.6461,1656.0
35.6986,1626.0
35.7511,1662.0
35.8036,1641.0
35.8562,1587.0
35.9087,1580.0
35.9612,1687.0
36.0137,1744.0
36.0662,1843.0
36.1188,1950.0
36.1713,2203.0
36.2238,2694.0
36.2763,3759.0
36.3289,6768.0
36.3814,14356.0
36.4339,15026.0
36.4864,10623.0
36.5389,6661.0
36.5915,2965.0
36.644,2184.0
36.6965,1898.0
36.749,1710.0
36.8015,1619.0
36.8541,1590.0
36.9066,1556.0
36.9591,1606.0
37.0116,1515.0
37.0641,1534.0
37.1167,1476.0
37.1692,1513.0
37.2217,1476.0
37.2742,1488.0
37.3268,1470.0
37.3793,1488.0
37.4318,1496.0
37.4843,1412.0
37.5368,1483.0
37.5894,1507.0
37.6419,1391.0
37.6944,1334.0
37.7469,1419.0
37.7994,1455.0
37.852,1450.0
37.9045,1358.0
37.957,1416.0
38.0095,1428.0
38.062,1391.0
38.1146,1376.0
38.1671,1430.0
38.2196,1362.0
38.2721,1352.0
38.3247,1410.0
38.3772,1381.0
38.4297,1410.0
38.4822,1448.0
38.5347,1412.0
38.5873,1404.0
38.6398,1311.0
38.6923,1353.0
38.7448,1402.0
38.7973,1350.0
38.8499,1416.0
38.9024,1405.0
38.9549,1324.0
39.0074,1327.0
39.06,1306.0
39.1125,1296.0
39.165,1349.0
39.2175,1297.0
39.27,1312.0
39.3226,1351.0
39.3751,1370.0
39.4276,1324.0
39.4801,1385.0
39.5326,1341.0
39.5852,1335.0
39.6377,1323.0
39.6902,1310.0
39.7427,1354.0
39.7952,1391.0
39.8478,1311.0
39.9003,1362.0
39.9528,1264.0
40.0053,1297.0
40.0579,1319.0
40.1104,1303.0
40.1629,1288.0
40.2154,1357.0
40.2679,1256.0
40.3205,1348.0
40.373,1278.0
40.4255,1371.0
40.478,1333.0
40.5305,1258.0
40.5831,1291.0
40.6356,1265.0
40.6881,1315.0
40.7406,1245.0
40.7931,1321.0
40.8457,1300.0
40.8982,1276.0
40.9507,1264.0
41.0032,1347.0
41.0558,1367.0
41.1083,1251.0
41.1608,1329.0
41.2133,1327.0
41.2658,1262.0
41.3184,1248.0
41.3709,1260.0
41.4234,1237.0
41.4759,1222.0
41.5284,1239.0
41.581,1228.0
41.6335,1244.0
41.686,1304.0
41.7385,1305.0
41.791,1250.0
41.8436,1221.0
41.8961,1308.0
41.9486,1252.0
42.0011,1243.0
42.0537,1302.0
42.1062,1252.0
42.1587,1272.0
42.2112,1274.0
42.2637,1249.0
42.3163,1315.0
42.3688,1225.0
42.4213,1210.0
42.4738,1213.0
42.5263,1305.0
42.5789,1239.0
42.6314,1215.0
42.6839,1220.0
42.7364,1241.0
42.789,1193.0
42.8415,1232.0
42.894,1273.0
42.9465,1206.0
42.999,1221.0
43.0516,1252.0
43.1041,1294.0
43.1566,1252.0
43.2091,1237.0
43.2616,1219.0
43.3142,1232.0
43.3667,1298.0
43.4192,1203.0
43.4717,1199.0
43.5242,1241.0
43.5768,1322.0
43.6293,1208.0
43.6818,1243.0
43.7343,1124.0
43.7869,1215.0
43.8394,1191.0
43.8919,1180.0
43.9444,1332.0
43.9969,1211.0
44.0495,1282.0
44.102,1278.0
44.1545,1201.0
44.207,1120.0
44.2595,1216.0
44.3121,1171.0
44.3646,1168.0
44.4171,1146.0
44.4696,1232.0
44.5221,1208.0
44.5747,1113.0
44.6272,1178.0
44.6797,1217.0
44.7322,1160.0
44.7848,1184.0
44.8373,1221.0
44.8898,1162.0
44.9423,1194.0
44.9948,1142.0
45.0474,1131.0
45.0999,1060.0
45.1524,1134.0
45.2049,1154.0
45.2574,1120.0
45.31,1142.0
45.3625,1109.0
45.415,1187.0
45.4675,1223.0
45.52,1152.0
45.5726,1163.0
45.6251,1221.0
45.6776,1148.0
45.7301,1172.0
45.7827,1179.0
45.8352,1110.0
45.8877,1119.0
45.9402,1215.0
45.9927,1163.0
46.0453,1163.0
46.0978,1087.0
46.1503,1213.0
46.2028,1135.0
46.2553,1095.0
46.3079,1083.0
46.3604,1145.0
46.4129,1168.0
46.4654,1135.0
46.518,1163.0
46.5705,1124.0
46.623,1191.0
46.6755,1118.0
46.728,1220.0
46.7806,1015.0
46.8331,1138.0
46.8856,1109.0
46.9381,1102.0
46.9906,1162.0
47.0432,1132.0
47.0957,1154.0
47.1482,1139.0
47.2007,1108.0
47.2532,1177.0
47.3058,1151.0
47.3583,1223.0
47.4108,1232.0
47.4633,1236.0
47.5159,1322.0
47.5684,1536.0
47.6209,2166.0
47.6734,3623.0
47.7259,3018.0
47.7785,2395.0
47.831,2338.0
47.8835,1486.0
47.936,1241.0
47.9885,1236.0
48.0411,1115.0
48.0936,1124.0
48.1461,1144.0
48.1986,1098.0
48.2511,1085.0
48.3037,1131.0
48.3562,1131.0
48.4087,1027.0
48.4612,1125.0
48.5138,1091.0
48.5663,1156.0
48.6188,1126.0
48.6713,1126.0
48.7238,1056.0
48.7764,1119.0
48.8289,1082.0
48.8814,1131.0
48.9339,1085.0
48.9864,1080.0
49.039,1049.0
49.0915,1071.0
49.144,1124.0
49.1965,1113.0
49.249,1089.0
49.3016,1092.0
49.3541,1037.0
49.4066,985.0
49.4591,1108.0
49.5117,1071.0
49.5642,1049.0
49.6167,1002.0
49.6692,1060.0
49.7217,1080.0
49.7743,992.0
49.8268,1051.0
49.8793,1080.0
49.9318,1034.0
49.9843,1056.0
50.0369,1080.0
50.0894,1112.0
50.1419,1032.0
50.1944,1071.0
50.247,1005.0
50.2995,1064.0
50.352,1002.0
50.4045,1097.0
50.457,1072.0
50.5096,1140.0
50.5621,1028.0
50.6146,1060.0
50.6671,1037.0
50.7196,1103.0
50.7722,1019.0
50.8247,1073.0
50.8772,1022.0
50.9297,1087.0
50.9822,1115.0
51.0348,1027.0
51.0873,1089.0
51.1398,1057.0
51.1923,1052.0
51.2449,1022.0
51.2974,1034.0
51.3499,1029.0
51.4024,1051.0
51.4549,1099.0
51.5075,1101.0
51.56,1034.0
51.6125,1059.0
51.665,955.0
51.7175,1011.0
51.7701,1036.0
51.8226,1050.0
51.8751,1000.0
51.9276,1076.0
51.9801,1050.0
52.0327,1054.0
52.0852,1069.0
52.1377,1061.0
52.1902,1013.0
52.2428,1082.0
52.2953,1023.0
52.3478,1067.0
52.4003,974.0
52.4528,1009.0
52.5054,968.0
52.5579,1005.0
52.6104,1068.0
52.6629,1050.0
52.7154,1036.0
52.768,982.0
52.8205,998.0
52.873,988.0
52.9255,1002.0
52.978,963.0
53.0306,1030.0
53.0831,1021.0
53.1356,1084.0
53.1881,958.0
53.2407,973.0
53.2932,1032.0
53.3457,1026.0
53.3982,993.0
53.4507,1010.0
53.5033,1000.0
53.5558,922.0
53.6083,977.0
53.6608,1014.0
53.7133,1016.0
53.7659,1041.0
53.8184,986.0
53.8709,949.0
53.9234,998.0
53.976,1052.0
54.0285,932.0
54.081,1000.0
54.1335,998.0
54.186,1057.0
54.2386,965.0
54.2911,1064.0
54.3436,983.0
54.3961,965.0
54.4486,988.0
54.5012,1006.0
54.5537,962.0
54.6062,982.0
54.6587,1055.0
54.7112,1020.0
54.7638,1031.0
54.8163,938.0
54.8688,994.0
54.9213,953.0
54.9739,964.0
55.0264,1022.0
55.0789,1017.0
55.1314,948.0
55.1839,950.0
55.2365,980.0
55.289,1006.0
55.3415,994.0
55.394,998.0
55.4465,1074.0
55.4991,982.0
55.5516,966.0
55.6041,1032.0
55.6566,971.0
55.7091,989.0
55.7617,901.0
55.8142,995.0
55.8667,921.0
55.9192,918.0
55.9718,938.0
56.0243,1008.0
56.0768,1068.0
56.1293,920.0
56.1818,1001.0
56.2344,1084.0
56.2869,1022.0
56.3394,1031.0
56.3919,1077.0
56.4444,1156.0
56.497,1163.0
56.5495,1222.0
56.602,1368.0
56.6545,2034.0
56.707,3795.0
56.7596,4442.0
56.8121,2352.0
56.8646,2802.0
56.9171,2678.0
56.9697,1357.0
57.0222,1192.0
57.0747,1087.0
57.1272,1054.0
57.1797,999.0
57.2323,972.0
57.2848,982.0
57.3373,984.0
57.3898,976.0
57.4423,985.0
57.4949,951.0
57.5474,1006.0
57.5999,971.0
57.6524,976.0
57.705,929.0
57.7575,969.0
57.81,982.0
57.8625,912.0
57.915,943.0
57.9676,1004.0
58.0201,934.0
58.0726,964.0
58.1251,935.0
58.1776,941.0
58.2302,966.0
58.2827,939.0
58.3352,948.0
58.3877,946.0
58.4402,947.0
58.4928,909.0
58.5453,971.0
58.5978,997.0
58.6503,910.0
58.7029,896.0
58.7554,963.0
58.8079,903.0
58.8604,923.0
58.9129,980.0
58.9655,983.0
59.018,954.0
59.0705,986.0
59.123,914.0
59.1755,961.0
59.2281,946.0
59.2806,941.0
59.3331,981.0
59.3856,949.0
59.4381,903.0
59.4907,894.0
59.5432,903.0
59.5957,961.0
59.6482,929.0
59.7008,904.0
59.7533,965.0
59.8058,924.0
59.8583,933.0
59.9108,889.0
59.9634,903.0
60.0159,961.0
60.0684,916.0
60.1209,873.0
60.1734,923.0
60.226,908.0
60.2785,910.0
60.331,931.0
60.3835,966.0
60.436,949.0
60.4886,937.0
60.5411,946.0
60.5936,893.0
60.6461,893.0
60.6987,904.0
60.7512,953.0
60.8037,946.0
60.8562,947.0
60.9087,924.0
60.9613,920.0
61.0138,934.0
61.0663,906.0
61.1188,884.0
61.1713,937.0
61.2239,876.0
61.2764,882.0
61.3289,955.0
61.3814,905.0
61.434,926.0
61.4865,868.0
61.539,943.0
61.5915,930.0
61.644,930.0
61.6966,875.0
61.7491,899.0
61.8016,912.0
61.8541,968.0
61.9066,906.0
61.9592,931.0
62.0117,922.0
62.0642,955.0
62.1167,906.0
62.1692,869.0
62.2218,868.0
62.2743,918.0
62.3268,937.0
62.3793,993.0
62.4319,969.0
62.4844,889.0
62.5369,906.0
62.5894,954.0
62.6419,989.0
62.6945,953.0
62.747,1030.0
62.7995,1012.0
62.852,1135.0
62.9045,1539.0
62.9571,2673.0
63.0096,3638.0
63.0621,1979.0
63.1146,1785.0
63.1671,2477.0
63.2197,1714.0
63.2722,1148.0
63.3247,1023.0
63.3772,973.0
63.4298,971.0
63.4823,939.0
63.5348,939.0
63.5873,866.0
63.6398,897.0
63.6924,852.0
63.7449,870.0
63.7974,856.0
63.8499,917.0
63.9024,876.0
63.955,891.0
64.0075,872.0
64.06,879.0
64.1125,905.0
64.165,901.0
64.2176,899.0
64.2701,895.0
64.3226,844.0
64.3751,836.0
64.4277,882.0
64.4802,860.0
64.5327,864.0
64.5852,884.0
64.6377,896.0
64.6903,851.0
64.7428,840.0
64.7953,876.0
64.8478,853.0
64.9003,887.0
64.9529,810.0
65.0054,865.0
65.0579,827.0
65.1104,887.0
65.163,885.0
65.2155,848.0
65.268,842.0
65.3205,845.0
65.373,846.0
65.4256,903.0
65.4781,840.0
65.5306,896.0
65.5831,928.0
65.6356,803.0
65.6882,879.0
65.7407,914.0
65.7932,858.0
65.8457,816.0
65.8982,890.0
65.9508,865.0
66.0033,836.0
66.0558,839.0
66.1083,877.0
66.1609,837.0
66.2134,910.0
66.2659,818.0
66.3184,900.0
66.3709,973.0
66.4235,900.0
66.476,1220.0
66.5285,1287.0
66.581,1047.0
66.6335,979.0
66.6861,1069.0
66.7386,1039.0
66.7911,914.0
66.8436,910.0
66.8961,848.0
66.9487,814.0
67.0012,877.0
67.0537,882.0
67.1062,872.0
67.1588,830.0
67.2113,821.0
67.2638,820.0
67.3163,843.0
67.3688,880.0
67.4214,807.0
67.4739,835.0
67.5264,897.0
67.5789,850.0
67.6314,830.0
67.684,908.0
67.7365,894.0
67.789,915.0
67.8415,936.0
67.894,878.0
67.9466,1084.0
67.9991,1475.0
68.0516,2632.0
68.1041,2874.0
68.1567,1572.0
68.2092,1427.0
68.2617,1996.0
68.3142,1607.0
68.3667,1129.0
68.4193,904.0
68.4718,880.0
68.5243,873.0
68.5768,888.0
68.6293,849.0
68.6819,871.0
68.7344,877.0
68.7869,897.0
68.8394,849.0
68.892,861.0
68.9445,850.0
68.997,886.0
69.0495,894.0
69.102,1009.0
69.1546,1258.0
69.2071,1812.0
69.2596,1578.0
69.3121,1121.0
69.3646,1157.0
69.4172,1373.0
69.4697,1079.0
69.5222,963.0
69.5747,792.0
69.6272,796.0
69.6798,802.0
69.7323,796.0
69.7848,806.0
69.8373,811.0
69.8899,814.0
69.9424,789.0
69.9949,756.0
70.0474,814.0
70.0999,814.0
70.1525,778.0
70.205,797.0
70.2575,837.0
70.31,784.0
70.3625,815.0
70.4151,805.0
70.4676,774.0
70.5201,797.0
70.5726,825.0
70.6251,773.0
70.6777,792.0
70.7302,788.0
70.7827,769.0
70.8352,779.0
70.8878,818.0
70.9403,847.0
70.9928,774.0
71.0453,794.0
71.0978,757.0
71.1504,772.0
71.2029,723.0
71.2554,780.0
71.3079,797.0
71.3604,757.0
71.413,757.0
71.4655,743.0
71.518,769.0
71.5705,775.0
71.623,813.0
71.6756,780.0
71.7281,726.0
71.7806,762.0
71.8331,788.0
71.8857,753.0
71.9382,794.0
71.9907,778.0
72.0432,777.0
72.0957,769.0
72.1483,782.0
72.2008,786.0
72.2533,742.0
72.3058,756.0
72.3583,733.0
72.4109,775.0
72.4634,764.0
72.5159,740.0
72.5684,769.0
72.621,805.0
72.6735,902.0
72.726,891.0
72.7785,795.0
72.831,761.0
72.8836,819.0
72.9361,822.0
72.9886,753.0
73.0411,788.0
73.0936,781.0
73.1462,741.0
73.1987,771.0
73.2512,790.0
73.3037,755.0
73.3562,757.0
73.4088,760.0
73.4613,744.0
73.5138,798.0
73.5663,699.0
73.6189,732.0
73.6714,741.0
73.7239,770.0
73.7764,794.0
73.8289,751.0
73.8815,718.0
73.934,699.0
73.9865,727.0
74.039,735.0
74.0915,763.0
74.1441,737.0
74.1966,738.0
74.2491,718.0
74.3016,705.0
74.3541,741.0
74.4067,791.0
74.4592,710.0
74.5117,745.0
74.5642,731.0
74.6168,725.0
74.6693,776.0
74.7218,726.0
74.7743,731.0
74.8268,708.0
74.8794,734.0
74.9319,835.0
74.9844,739.0
75.0369,775.0
75.0894,759.0
75.142,731.0
75.1945,732.0
75.247,722.0
75.2995,692.0
75.352,737.0
75.4046,789.0
75.4571,729.0
75.5096,711.0
75.5621,735.0
75.6147,695.0
75.6672,734.0
75.7197,743.0
75.7722,693.0
75.8247,672.0
75.8773,710.0
75.9298,675.0
75.9823,753.0
76.0348,688.0
76.0873,673.0
76.1399,730.0
76.1924,714.0
76.2449,704.0
76.2974,686.0
76.35,725.0
76.4025,688.0
76.455,727.0
76.5075,770.0
76.56,732.0
76.6126,742.0
76.6651,700.0
76.7176,741.0
76.7701,712.0
76.8226,709.0
76.8752,710.0
76.9277,814.0
76.9802,753.0
77.0327,831.0
77.0852,1022.0
77.1378,959.0
77.1903,760.0
77.2428,828.0
77.2953,884.0
77.3479,788.0
77.4004,760.0
77.4529,791.0
77.5054,662.0
77.5579,674.0
77.6105,684.0
77.663,752.0
77.7155,701.0
77.768,719.0
77.8205,691.0
77.8731,696.0
77.9256,718.0
77.9781,710.0
78.0306,687.0
78.0831,682.0
78.1357,695.0
78.1882,683.0
78.2407,665.0
78.2932,720.0
78.3458,716.0
78.3983,687.0
78.4508,676.0
78.5033,691.0
78.5558,699.0
78.6084,680.0
78.6609,671.0
78.7134,662.0
78.7659,682.0
78.8184,655.0
78.871,761.0
78.9235,742.0
78.976,697.0
79.0285,729.0
79.081,693.0
79.1336,681.0
79.1861,682.0
79.2386,714.0
79.2911,672.0
79.3437,673.0
79.3962,693.0
79.4487,635.0
79.5012,657.0
79.5537,702.0
79.6063,672.0
79.6588,641.0
79.7113,708.0
79.7638,666.0
79.8163,651.0
79.8689,680.0
79.9214,650.0
79.9739,656.0