File: Proyecto/DRX/7061.csv
[Measurement conditions]
Sample identification,7061
Comment - 1,"Configuration=Plataforma Reflexion-Transmision spinner, Owner=User-1, Creation date=2/3/2023 7:20:03 AM"
Comment - 2,"Goniometer=Omega/2Theta; Minimum step size 2Theta:0.0001; Minimum step size Omega:0.0001"
Comment - 3,"Sample stage=Reflection-transmission spinner; Minimum step size Phi:0.1"
Comment - 4,"Diffractometer system=EMPYREAN"
Comment - 5,"Measurement program=C:\PANalytical\Data Collector\Programs\DRX01-005-5-80.xrdmp, Identifier={F6BCA4AE-3CE5-429B-BFE0-24F75AE8A160}"
Comment - 6,"Batch program=C:\PANalytical\Data Collector\Programs\DRX-11-03-2025.xrdmp, Identifier={AA0EBF15-5E9A-4A2E-A19D-1EE3EE637F25}"
Anode material,Cu
K-Alpha1 wavelength,1.5406
K-Alpha2 wavelength,1.54443
Ratio K-Alpha2/K-Alpha1,0.500
Divergence slit,Fixed,0.5
Monochromator used,NO
Generator voltage, 45
Tube current, 40
File date and time,11/Mar/2025 12:33
Unit cell,
h k l, 0 0 0
Scan axis,Gonio
Scan range,5,80.0002
Scan step size,0.0525211
No. of points, 1428
Scan type,CONTINUOUS
Phi,279.9
Time per step,43.605
[Scan points]
Angle,Intensity
5.02626,3361.0
5.07878,3399.0
5.1313,3459.0
5.18382,3348.0
5.23635,3209.0
5.28887,3186.0
5.34139,3157.0
5.39391,3076.0
5.44643,3092.0
5.49895,3191.0
5.55147,3143.0
5.60399,3182.0
5.65651,3176.0
5.70904,3071.0
5.76156,3160.0
5.81408,2918.0
5.8666,3073.0
5.91912,3073.0
5.97164,3081.0
6.02416,3039.0
6.07668,3072.0
6.1292,3067.0
6.18173,3107.0
6.23425,3060.0
6.28677,3053.0
6.33929,3048.0
6.39181,3067.0
6.44433,3059.0
6.49685,3010.0
6.54937,3084.0
6.60189,3072.0
6.65442,3003.0
6.70694,3045.0
6.75946,3141.0
6.81198,3036.0
6.8645,3011.0
6.91702,3070.0
6.96954,3090.0
7.02206,3119.0
7.07458,3081.0
7.12711,3145.0
7.17963,3014.0
7.23215,3130.0
7.28467,3005.0
7.33719,3088.0
7.38971,3083.0
7.44223,3050.0
7.49475,3102.0
7.54727,3117.0
7.5998,3030.0
7.65232,3022.0
7.70484,3121.0
7.75736,3121.0
7.80988,3081.0
7.8624,3103.0
7.91492,2933.0
7.96744,3005.0
8.01996,3074.0
8.07249,3019.0
8.12501,3128.0
8.17753,3062.0
8.23005,3061.0
8.28257,3052.0
8.33509,3102.0
8.38761,3108.0
8.44013,3168.0
8.49265,3098.0
8.54518,3027.0
8.5977,3070.0
8.65022,3064.0
8.70274,2961.0
8.75526,3059.0
8.80778,3055.0
8.8603,3072.0
8.91282,3063.0
8.96535,3050.0
9.01787,3041.0
9.07039,2994.0
9.12291,2945.0
9.17543,3036.0
9.22795,2955.0
9.28047,2997.0
9.33299,3003.0
9.38551,3026.0
9.43804,2792.0
9.49056,2953.0
9.54308,3005.0
9.5956,3064.0
9.64812,3034.0
9.70064,2982.0
9.75316,2999.0
9.80568,2938.0
9.8582,2987.0
9.91073,2907.0
9.96325,2949.0
10.0158,2961.0
10.0683,2945.0
10.1208,3039.0
10.1733,2912.0
10.2259,2882.0
10.2784,2900.0
10.3309,2906.0
10.3834,2960.0
10.4359,2917.0
10.4885,3015.0
10.541,2892.0
10.5935,2830.0
10.646,2782.0
10.6985,2864.0
10.7511,2814.0
10.8036,2950.0
10.8561,2793.0
10.9086,2863.0
10.9611,2920.0
11.0137,2837.0
11.0662,2810.0
11.1187,2848.0
11.1712,2784.0
11.2238,2789.0
11.2763,2825.0
11.3288,2730.0
11.3813,2851.0
11.4338,2762.0
11.4864,2844.0
11.5389,2796.0
11.5914,2876.0
11.6439,2846.0
11.6964,2818.0
11.749,2685.0
11.8015,2792.0
11.854,2884.0
11.9065,2779.0
11.959,2752.0
12.0116,2731.0
12.0641,2861.0
12.1166,2769.0
12.1691,2806.0
12.2217,2791.0
12.2742,2697.0
12.3267,2834.0
12.3792,2711.0
12.4317,2762.0
12.4843,2785.0
12.5368,2714.0
12.5893,2712.0
12.6418,2729.0
12.6943,2682.0
12.7469,2749.0
12.7994,2701.0
12.8519,2721.0
12.9044,2761.0
12.957,2723.0
13.0095,2768.0
13.062,2707.0
13.1145,2630.0
13.167,2710.0
13.2196,2630.0
13.2721,2643.0
13.3246,2622.0
13.3771,2678.0
13.4296,2621.0
13.4822,2545.0
13.5347,2733.0
13.5872,2600.0
13.6397,2530.0
13.6922,2658.0
13.7448,2671.0
13.7973,2629.0
13.8498,2597.0
13.9023,2597.0
13.9549,2622.0
14.0074,2527.0
14.0599,2569.0
14.1124,2601.0
14.1649,2551.0
14.2175,2551.0
14.27,2618.0
14.3225,2581.0
14.375,2508.0
14.4275,2563.0
14.4801,2610.0
14.5326,2604.0
14.5851,2495.0
14.6376,2547.0
14.6901,2490.0
14.7427,2552.0
14.7952,2527.0
14.8477,2461.0
14.9002,2593.0
14.9528,2553.0
15.0053,2500.0
15.0578,2462.0
15.1103,2523.0
15.1628,2574.0
15.2154,2537.0
15.2679,2528.0
15.3204,2422.0
15.3729,2584.0
15.4254,2424.0
15.478,2473.0
15.5305,2450.0
15.583,2505.0
15.6355,2516.0
15.688,2502.0
15.7406,2427.0
15.7931,2435.0
15.8456,2448.0
15.8981,2379.0
15.9507,2502.0
16.0032,2507.0
16.0557,2460.0
16.1082,2387.0
16.1607,2449.0
16.2133,2560.0
16.2658,2463.0
16.3183,2435.0
16.3708,2313.0
16.4233,2424.0
16.4759,2487.0
16.5284,2515.0
16.5809,2369.0
16.6334,2414.0
16.686,2435.0
16.7385,2478.0
16.791,2392.0
16.8435,2420.0
16.896,2381.0
16.9486,2375.0
17.0011,2447.0
17.0536,2387.0
17.1061,2434.0
17.1586,2487.0
17.2112,2419.0
17.2637,2392.0
17.3162,2430.0
17.3687,2384.0
17.4212,2449.0
17.4738,2387.0
17.5263,2350.0
17.5788,2416.0
17.6313,2301.0
17.6839,2360.0
17.7364,2473.0
17.7889,2365.0
17.8414,2350.0
17.8939,2366.0
17.9465,2353.0
17.999,2254.0
18.0515,2332.0
18.104,2264.0
18.1565,2248.0
18.2091,2306.0
18.2616,2382.0
18.3141,2390.0
18.3666,2313.0
18.4191,2336.0
18.4717,2297.0
18.5242,2388.0
18.5767,2324.0
18.6292,2367.0
18.6818,2309.0
18.7343,2394.0
18.7868,2254.0
18.8393,2221.0
18.8918,2335.0
18.9444,2297.0
18.9969,2304.0
19.0494,2238.0
19.1019,2426.0
19.1544,2294.0
19.207,2222.0
19.2595,2291.0
19.312,2338.0
19.3645,2326.0
19.417,2453.0
19.4696,2363.0
19.5221,2270.0
19.5746,2344.0
19.6271,2378.0
19.6797,2207.0
19.7322,2376.0
19.7847,2339.0
19.8372,2332.0
19.8897,2266.0
19.9423,2339.0
19.9948,2326.0
20.0473,2284.0
20.0998,2304.0
20.1523,2360.0
20.2049,2311.0
20.2574,2372.0
20.3099,2222.0
20.3624,2373.0
20.415,2362.0
20.4675,2293.0
20.52,2368.0
20.5725,2362.0
20.625,2232.0
20.6776,2305.0
20.7301,2371.0
20.7826,2338.0
20.8351,2328.0
20.8876,2240.0
20.9402,2254.0
20.9927,2286.0
21.0452,2401.0
21.0977,2413.0
21.1502,2374.0
21.2028,2417.0
21.2553,2324.0
21.3078,2382.0
21.3603,2330.0
21.4129,2327.0
21.4654,2360.0
21.5179,2297.0
21.5704,2279.0
21.6229,2263.0
21.6755,2272.0
21.728,2266.0
21.7805,2295.0
21.833,2289.0
21.8855,2378.0
21.9381,2327.0
21.9906,2232.0
22.0431,2298.0
22.0956,2351.0
22.1481,2268.0
22.2007,2350.0
22.2532,2342.0
22.3057,2284.0
22.3582,2252.0
22.4108,2293.0
22.4633,2317.0
22.5158,2279.0
22.5683,2312.0
22.6208,2213.0
22.6734,2316.0
22.7259,2222.0
22.7784,2330.0
22.8309,2337.0
22.8834,2249.0
22.936,2226.0
22.9885,2298.0
23.041,2245.0
23.0935,2275.0
23.146,2180.0
23.1986,2380.0
23.2511,2329.0
23.3036,2370.0
23.3561,2235.0
23.4087,2280.0
23.4612,2263.0
23.5137,2247.0
23.5662,2254.0
23.6187,2225.0
23.6713,2216.0
23.7238,2281.0
23.7763,2300.0
23.8288,2294.0
23.8813,2338.0
23.9339,2305.0
23.9864,2233.0
24.0389,2314.0
24.0914,2165.0
24.144,2209.0
24.1965,2295.0
24.249,2179.0
24.3015,2226.0
24.354,2181.0
24.4066,2213.0
24.4591,2274.0
24.5116,2234.0
24.5641,2198.0
24.6166,2158.0
24.6692,2240.0
24.7217,2249.0
24.7742,2236.0
24.8267,2187.0
24.8792,2248.0
24.9318,2218.0
24.9843,2107.0
25.0368,2172.0
25.0893,2136.0
25.1419,2219.0
25.1944,2194.0
25.2469,2093.0
25.2994,2226.0
25.3519,2137.0
25.4045,2093.0
25.457,2206.0
25.5095,2179.0
25.562,2065.0
25.6145,2114.0
25.6671,2159.0
25.7196,2175.0
25.7721,2156.0
25.8246,2190.0
25.8771,2042.0
25.9297,2076.0
25.9822,2098.0
26.0347,2119.0
26.0872,2170.0
26.1398,2122.0
26.1923,2060.0
26.2448,2066.0
26.2973,2062.0
26.3498,2072.0
26.4024,2017.0
26.4549,2094.0
26.5074,2105.0
26.5599,2102.0
26.6124,2023.0
26.665,2117.0
26.7175,1997.0
26.77,2026.0
26.8225,2015.0
26.875,2032.0
26.9276,2075.0
26.9801,2069.0
27.0326,2123.0
27.0851,2063.0
27.1377,2020.0
27.1902,1982.0
27.2427,1964.0
27.2952,2031.0
27.3477,2020.0
27.4003,2006.0
27.4528,1996.0
27.5053,2083.0
27.5578,1875.0
27.6103,2039.0
27.6629,1986.0
27.7154,2050.0
27.7679,1953.0
27.8204,2029.0
27.873,1930.0
27.9255,2008.0
27.978,1956.0
28.0305,1978.0
28.083,1954.0
28.1356,1861.0
28.1881,1949.0
28.2406,1925.0
28.2931,1952.0
28.3456,1957.0
28.3982,1873.0
28.4507,1981.0
28.5032,1913.0
28.5557,1946.0
28.6082,1887.0
28.6608,1933.0
28.7133,1865.0
28.7658,1914.0
28.8183,1914.0
28.8709,1831.0
28.9234,1949.0
28.9759,1929.0
29.0284,1893.0
29.0809,1903.0
29.1335,1956.0
29.186,1897.0
29.2385,1794.0
29.291,1880.0
29.3435,1875.0
29.3961,1934.0
29.4486,1841.0
29.5011,1935.0
29.5536,1906.0
29.6061,1788.0
29.6587,1904.0
29.7112,1891.0
29.7637,1852.0
29.8162,1841.0
29.8688,1818.0
29.9213,1837.0
29.9738,1776.0
30.0263,1853.0
30.0788,1883.0
30.1314,1776.0
30.1839,1789.0
30.2364,1774.0
30.2889,1775.0
30.3414,1789.0
30.394,1824.0
30.4465,1816.0
30.499,1759.0
30.5515,1778.0
30.604,1804.0
30.6566,1779.0
30.7091,1842.0
30.7616,1769.0
30.8141,1743.0
30.8667,1745.0
30.9192,1864.0
30.9717,1773.0
31.0242,1826.0
31.0767,1765.0
31.1293,1794.0
31.1818,1719.0
31.2343,1757.0
31.2868,1814.0
31.3393,1749.0
31.3919,1882.0
31.4444,1689.0
31.4969,1754.0
31.5494,1824.0
31.602,1897.0
31.6545,1864.0
31.707,2127.0
31.7595,2509.0
31.812,3608.0
31.8646,6489.0
31.9171,8664.0
31.9696,5931.0
32.0221,3864.0
32.0746,2353.0
32.1272,1938.0
32.1797,1870.0
32.2322,1769.0
32.2847,1713.0
32.3372,1674.0
32.3898,1675.0
32.4423,1721.0
32.4948,1645.0
32.5473,1709.0
32.5999,1606.0
32.6524,1772.0
32.7049,1598.0
32.7574,1641.0
32.8099,1654.0
32.8625,1664.0
32.915,1612.0
32.9675,1575.0
33.02,1552.0
33.0725,1554.0
33.1251,1533.0
33.1776,1573.0
33.2301,1555.0
33.2826,1629.0
33.3351,1553.0
33.3877,1456.0
33.4402,1601.0
33.4927,1539.0
33.5452,1613.0
33.5978,1623.0
33.6503,1542.0
33.7028,1515.0
33.7553,1564.0
33.8078,1537.0
33.8604,1508.0
33.9129,1577.0
33.9654,1531.0
34.0179,1525.0
34.0704,1540.0
34.123,1498.0
34.1755,1534.0
34.228,1593.0
34.2805,1603.0
34.333,1734.0
34.3856,1791.0
34.4381,2117.0
34.4906,3137.0
34.5431,5601.0
34.5957,4392.0
34.6482,3767.0
34.7007,2139.0
34.7532,1700.0
34.8057,1559.0
34.8583,1583.0
34.9108,1480.0
34.9633,1533.0
35.0158,1451.0
35.0683,1399.0
35.1209,1398.0
35.1734,1456.0
35.2259,1473.0
35.2784,1360.0
35.331,1475.0
35.3835,1420.0
35.436,1388.0
35.4885,1365.0
35.541,1475.0
35.5936,1406.0
35.6461,1389.0
35.6986,1428.0
35.7511,1422.0
35.8036,1446.0
35.8562,1418.0
35.9087,1447.0
35.9612,1432.0
36.0137,1506.0
36.0662,1671.0
36.1188,1692.0
36.1713,1911.0
36.2238,2283.0
36.2763,3367.0
36.3289,6270.0
36.3814,11360.0
36.4339,7836.0
36.4864,6621.0
36.5389,3094.0
36.5915,1957.0
36.644,1663.0
36.6965,1484.0
36.749,1460.0
36.8015,1455.0
36.8541,1452.0
36.9066,1343.0
36.9591,1359.0
37.0116,1385.0
37.0641,1360.0
37.1167,1296.0
37.1692,1319.0
37.2217,1306.0
37.2742,1290.0
37.3268,1305.0
37.3793,1326.0
37.4318,1275.0
37.4843,1276.0
37.5368,1285.0
37.5894,1241.0
37.6419,1264.0
37.6944,1294.0
37.7469,1263.0
37.7994,1211.0
37.852,1225.0
37.9045,1209.0
37.957,1191.0
38.0095,1195.0
38.062,1243.0
38.1146,1265.0
38.1671,1202.0
38.2196,1300.0
38.2721,1171.0
38.3247,1278.0
38.3772,1205.0
38.4297,1196.0
38.4822,1173.0
38.5347,1183.0
38.5873,1249.0
38.6398,1146.0
38.6923,1183.0
38.7448,1186.0
38.7973,1198.0
38.8499,1162.0
38.9024,1187.0
38.9549,1183.0
39.0074,1179.0
39.06,1206.0
39.1125,1162.0
39.165,1229.0
39.2175,1198.0
39.27,1144.0
39.3226,1179.0
39.3751,1116.0
39.4276,1176.0
39.4801,1188.0
39.5326,1127.0
39.5852,1169.0
39.6377,1162.0
39.6902,1138.0
39.7427,1230.0
39.7952,1169.0
39.8478,1139.0
39.9003,1157.0
39.9528,1148.0
40.0053,1153.0
40.0579,1126.0
40.1104,1125.0
40.1629,1168.0
40.2154,1145.0
40.2679,1113.0
40.3205,1078.0
40.373,1125.0
40.4255,1118.0
40.478,1097.0
40.5305,1143.0
40.5831,1097.0
40.6356,1098.0
40.6881,1222.0
40.7406,1118.0
40.7931,1072.0
40.8457,1127.0
40.8982,1106.0
40.9507,1140.0
41.0032,1095.0
41.0558,1104.0
41.1083,1118.0
41.1608,1122.0
41.2133,1136.0
41.2658,1067.0
41.3184,1098.0
41.3709,1107.0
41.4234,1097.0
41.4759,1117.0
41.5284,1168.0
41.581,1082.0
41.6335,1050.0
41.686,1084.0
41.7385,1110.0
41.791,1102.0
41.8436,1114.0
41.8961,1102.0
41.9486,1095.0
42.0011,1090.0
42.0537,1100.0
42.1062,1146.0
42.1587,1117.0
42.2112,1063.0
42.2637,1139.0
42.3163,1133.0
42.3688,1035.0
42.4213,1037.0
42.4738,1008.0
42.5263,1078.0
42.5789,1072.0
42.6314,1061.0
42.6839,1106.0
42.7364,1080.0
42.789,1070.0
42.8415,1040.0
42.894,1029.0
42.9465,1076.0
42.999,1059.0
43.0516,1012.0
43.1041,1116.0
43.1566,1073.0
43.2091,1030.0
43.2616,1023.0
43.3142,1125.0
43.3667,1052.0
43.4192,1066.0
43.4717,1024.0
43.5242,1070.0
43.5768,968.0
43.6293,1047.0
43.6818,1098.0
43.7343,1117.0
43.7869,1054.0
43.8394,1028.0
43.8919,1079.0
43.9444,1097.0
43.9969,1045.0
44.0495,1024.0
44.102,1018.0
44.1545,997.0
44.207,1000.0
44.2595,981.0
44.3121,1080.0
44.3646,1055.0
44.4171,981.0
44.4696,974.0
44.5221,996.0
44.5747,1055.0
44.6272,1038.0
44.6797,971.0
44.7322,913.0
44.7848,1037.0
44.8373,980.0
44.8898,912.0
44.9423,993.0
44.9948,980.0
45.0474,1035.0
45.0999,977.0
45.1524,962.0
45.2049,973.0
45.2574,1012.0
45.31,982.0
45.3625,1002.0
45.415,1023.0
45.4675,965.0
45.52,997.0
45.5726,943.0
45.6251,974.0
45.6776,942.0
45.7301,962.0
45.7827,965.0
45.8352,1011.0
45.8877,1030.0
45.9402,988.0
45.9927,1058.0
46.0453,980.0
46.0978,961.0
46.1503,946.0
46.2028,952.0
46.2553,1003.0
46.3079,1011.0
46.3604,1041.0
46.4129,903.0
46.4654,963.0
46.518,987.0
46.5705,921.0
46.623,1046.0
46.6755,940.0
46.728,975.0
46.7806,956.0
46.8331,991.0
46.8856,1000.0
46.9381,991.0
46.9906,929.0
47.0432,968.0
47.0957,950.0
47.1482,951.0
47.2007,947.0
47.2532,991.0
47.3058,1005.0
47.3583,969.0
47.4108,968.0
47.4633,1048.0
47.5159,1078.0
47.5684,1321.0
47.6209,1996.0
47.6734,2700.0
47.7259,1820.0
47.7785,1842.0
47.831,1517.0
47.8835,1116.0
47.936,1036.0
47.9885,976.0
48.0411,992.0
48.0936,960.0
48.1461,889.0
48.1986,928.0
48.2511,950.0
48.3037,942.0
48.3562,908.0
48.4087,974.0
48.4612,999.0
48.5138,937.0
48.5663,950.0
48.6188,925.0
48.6713,926.0
48.7238,970.0
48.7764,938.0
48.8289,955.0
48.8814,847.0
48.9339,924.0
48.9864,902.0
49.039,895.0
49.0915,929.0
49.144,926.0
49.1965,929.0
49.249,893.0
49.3016,878.0
49.3541,912.0
49.4066,943.0
49.4591,906.0
49.5117,882.0
49.5642,894.0
49.6167,903.0
49.6692,889.0
49.7217,882.0
49.7743,894.0
49.8268,860.0
49.8793,862.0
49.9318,901.0
49.9843,884.0
50.0369,914.0
50.0894,916.0
50.1419,798.0
50.1944,885.0
50.247,917.0
50.2995,909.0
50.352,920.0
50.4045,895.0
50.457,915.0
50.5096,837.0
50.5621,883.0
50.6146,873.0
50.6671,859.0
50.7196,877.0
50.7722,880.0
50.8247,886.0
50.8772,900.0
50.9297,894.0
50.9822,849.0
51.0348,886.0
51.0873,879.0
51.1398,851.0
51.1923,865.0
51.2449,864.0
51.2974,873.0
51.3499,881.0
51.4024,857.0
51.4549,858.0
51.5075,898.0
51.56,874.0
51.6125,835.0
51.665,891.0
51.7175,897.0
51.7701,849.0
51.8226,862.0
51.8751,881.0
51.9276,873.0
51.9801,847.0
52.0327,819.0
52.0852,829.0
52.1377,828.0
52.1902,850.0
52.2428,886.0
52.2953,913.0
52.3478,831.0
52.4003,847.0
52.4528,883.0
52.5054,903.0
52.5579,833.0
52.6104,931.0
52.6629,883.0
52.7154,905.0
52.768,818.0
52.8205,900.0
52.873,866.0
52.9255,852.0
52.978,875.0
53.0306,839.0
53.0831,821.0
53.1356,864.0
53.1881,807.0
53.2407,884.0
53.2932,848.0
53.3457,823.0
53.3982,808.0
53.4507,833.0
53.5033,844.0
53.5558,788.0
53.6083,810.0
53.6608,859.0
53.7133,798.0
53.7659,883.0
53.8184,798.0
53.8709,827.0
53.9234,748.0
53.976,799.0
54.0285,887.0
54.081,838.0
54.1335,792.0
54.186,826.0
54.2386,789.0
54.2911,867.0
54.3436,918.0
54.3961,828.0
54.4486,866.0
54.5012,850.0
54.5537,814.0
54.6062,878.0
54.6587,839.0
54.7112,823.0
54.7638,804.0
54.8163,850.0
54.8688,789.0
54.9213,823.0
54.9739,861.0
55.0264,787.0
55.0789,847.0
55.1314,797.0
55.1839,828.0
55.2365,819.0
55.289,881.0
55.3415,862.0
55.394,793.0
55.4465,824.0
55.4991,842.0
55.5516,857.0
55.6041,805.0
55.6566,862.0
55.7091,773.0
55.7617,822.0
55.8142,819.0
55.8667,854.0
55.9192,835.0
55.9718,796.0
56.0243,817.0
56.0768,844.0
56.1293,820.0
56.1818,853.0
56.2344,842.0
56.2869,899.0
56.3394,813.0
56.3919,863.0
56.4444,869.0
56.497,896.0
56.5495,994.0
56.602,1159.0
56.6545,1827.0
56.707,3387.0
56.7596,2223.0
56.8121,1710.0
56.8646,2179.0
56.9171,1573.0
56.9697,994.0
57.0222,940.0
57.0747,885.0
57.1272,873.0
57.1797,857.0
57.2323,844.0
57.2848,860.0
57.3373,866.0
57.3898,891.0
57.4423,873.0
57.4949,814.0
57.5474,838.0
57.5999,782.0
57.6524,814.0
57.705,843.0
57.7575,810.0
57.81,787.0
57.8625,819.0
57.915,815.0
57.9676,842.0
58.0201,770.0
58.0726,814.0
58.1251,806.0
58.1776,788.0
58.2302,749.0
58.2827,774.0
58.3352,827.0
58.3877,778.0
58.4402,857.0
58.4928,780.0
58.5453,829.0
58.5978,803.0
58.6503,792.0
58.7029,722.0
58.7554,868.0
58.8079,791.0
58.8604,779.0
58.9129,783.0
58.9655,800.0
59.018,822.0
59.0705,765.0
59.123,823.0
59.1755,809.0
59.2281,845.0
59.2806,790.0
59.3331,762.0
59.3856,829.0
59.4381,768.0
59.4907,793.0
59.5432,774.0
59.5957,712.0
59.6482,798.0
59.7008,810.0
59.7533,799.0
59.8058,765.0
59.8583,794.0
59.9108,844.0
59.9634,849.0
60.0159,857.0
60.0684,753.0
60.1209,832.0
60.1734,815.0
60.226,739.0
60.2785,777.0
60.331,798.0
60.3835,839.0
60.436,821.0
60.4886,768.0
60.5411,802.0
60.5936,809.0
60.6461,779.0
60.6987,782.0
60.7512,744.0
60.8037,772.0
60.8562,813.0
60.9087,746.0
60.9613,737.0
61.0138,819.0
61.0663,768.0
61.1188,758.0
61.1713,731.0
61.2239,779.0
61.2764,794.0
61.3289,806.0
61.3814,808.0
61.434,787.0
61.4865,853.0
61.539,764.0
61.5915,828.0
61.644,840.0
61.6966,774.0
61.7491,838.0
61.8016,742.0
61.8541,753.0
61.9066,775.0
61.9592,790.0
62.0117,853.0
62.0642,829.0
62.1167,774.0
62.1692,780.0
62.2218,796.0
62.2743,822.0
62.3268,804.0
62.3793,736.0
62.4319,697.0
62.4844,786.0
62.5369,748.0
62.5894,835.0
62.6419,801.0
62.6945,830.0
62.747,811.0
62.7995,838.0
62.852,982.0
62.9045,1388.0
62.9571,2337.0
63.0096,2097.0
63.0621,1280.0
63.1146,1376.0
63.1671,1627.0
63.2197,1008.0
63.2722,952.0
63.3247,794.0
63.3772,767.0
63.4298,765.0
63.4823,801.0
63.5348,779.0
63.5873,800.0
63.6398,740.0
63.6924,787.0
63.7449,758.0
63.7974,746.0
63.8499,742.0
63.9024,776.0
63.955,737.0
64.0075,746.0
64.06,785.0
64.1125,777.0
64.165,743.0
64.2176,744.0
64.2701,761.0
64.3226,737.0
64.3751,757.0
64.4277,691.0
64.4802,718.0
64.5327,733.0
64.5852,688.0
64.6377,751.0
64.6903,708.0
64.7428,752.0
64.7953,740.0
64.8478,746.0
64.9003,731.0
64.9529,734.0
65.0054,689.0
65.0579,756.0
65.1104,722.0
65.163,802.0
65.2155,745.0
65.268,769.0
65.3205,724.0
65.373,687.0
65.4256,697.0
65.4781,717.0
65.5306,734.0
65.5831,744.0
65.6356,710.0
65.6882,701.0
65.7407,794.0
65.7932,788.0
65.8457,746.0
65.8982,745.0
65.9508,784.0
66.0033,721.0
66.0558,745.0
66.1083,703.0
66.1609,707.0
66.2134,748.0
66.2659,681.0
66.3184,766.0
66.3709,817.0
66.4235,820.0
66.476,1004.0
66.5285,885.0
66.581,818.0
66.6335,887.0
66.6861,860.0
66.7386,784.0
66.7911,715.0
66.8436,773.0
66.8961,649.0
66.9487,722.0
67.0012,736.0
67.0537,692.0
67.1062,713.0
67.1588,706.0
67.2113,736.0
67.2638,686.0
67.3163,742.0
67.3688,714.0
67.4214,723.0
67.4739,738.0
67.5264,744.0
67.5789,715.0
67.6314,689.0
67.684,700.0
67.7365,775.0
67.789,755.0
67.8415,729.0
67.894,849.0
67.9466,898.0
67.9991,1296.0
68.0516,2091.0
68.1041,1534.0
68.1567,1085.0
68.2092,1243.0
68.2617,1482.0
68.3142,1008.0
68.3667,770.0
68.4193,712.0
68.4718,738.0
68.5243,686.0
68.5768,701.0
68.6293,738.0
68.6819,671.0
68.7344,691.0
68.7869,685.0
68.8394,732.0
68.892,698.0
68.9445,723.0
68.997,711.0
69.0495,759.0
69.102,811.0
69.1546,1093.0
69.2071,1451.0
69.2596,998.0
69.3121,975.0
69.3646,1016.0
69.4172,999.0
69.4697,863.0
69.5222,755.0
69.5747,680.0
69.6272,706.0
69.6798,666.0
69.7323,662.0
69.7848,697.0
69.8373,661.0
69.8899,660.0
69.9424,651.0
69.9949,660.0
70.0474,687.0
70.0999,660.0
70.1525,703.0
70.205,647.0
70.2575,661.0
70.31,631.0
70.3625,674.0
70.4151,674.0
70.4676,674.0
70.5201,681.0
70.5726,644.0
70.6251,676.0
70.6777,670.0
70.7302,677.0
70.7827,634.0
70.8352,669.0
70.8878,672.0
70.9403,649.0
70.9928,668.0
71.0453,644.0
71.0978,640.0
71.1504,666.0
71.2029,603.0
71.2554,678.0
71.3079,641.0
71.3604,636.0
71.413,626.0
71.4655,640.0
71.518,648.0
71.5705,670.0
71.623,701.0
71.6756,619.0
71.7281,667.0
71.7806,651.0
71.8331,661.0
71.8857,624.0
71.9382,658.0
71.9907,658.0
72.0432,624.0
72.0957,643.0
72.1483,628.0
72.2008,703.0
72.2533,612.0
72.3058,636.0
72.3583,669.0
72.4109,663.0
72.4634,661.0
72.5159,626.0
72.5684,623.0
72.621,639.0
72.6735,748.0
72.726,703.0
72.7785,679.0
72.831,694.0
72.8836,720.0
72.9361,647.0
72.9886,624.0
73.0411,614.0
73.0936,648.0
73.1462,625.0
73.1987,645.0
73.2512,627.0
73.3037,644.0
73.3562,617.0
73.4088,651.0
73.4613,673.0
73.5138,645.0
73.5663,615.0
73.6189,648.0
73.6714,634.0
73.7239,583.0
73.7764,622.0
73.8289,631.0
73.8815,576.0
73.934,623.0
73.9865,626.0
74.039,664.0
74.0915,620.0
74.1441,635.0
74.1966,641.0
74.2491,621.0
74.3016,629.0
74.3541,652.0
74.4067,630.0
74.4592,611.0
74.5117,614.0
74.5642,637.0
74.6168,661.0
74.6693,598.0
74.7218,630.0
74.7743,644.0
74.8268,640.0
74.8794,561.0
74.9319,629.0
74.9844,614.0
75.0369,586.0
75.0894,591.0
75.142,569.0
75.1945,606.0
75.247,619.0
75.2995,657.0
75.352,615.0
75.4046,604.0
75.4571,611.0
75.5096,657.0
75.5621,609.0
75.6147,589.0
75.6672,644.0
75.7197,617.0
75.7722,578.0
75.8247,615.0
75.8773,557.0
75.9298,584.0
75.9823,605.0
76.0348,586.0
76.0873,579.0
76.1399,582.0
76.1924,595.0
76.2449,569.0
76.2974,586.0
76.35,632.0
76.4025,614.0
76.455,594.0
76.5075,665.0
76.56,596.0
76.6126,596.0
76.6651,627.0
76.7176,579.0
76.7701,617.0
76.8226,577.0
76.8752,627.0
76.9277,627.0
76.9802,640.0
77.0327,728.0
77.0852,781.0
77.1378,645.0
77.1903,604.0
77.2428,645.0
77.2953,717.0
77.3479,640.0
77.4004,621.0
77.4529,599.0
77.5054,549.0
77.5579,593.0
77.6105,579.0
77.663,589.0
77.7155,582.0
77.768,573.0
77.8205,564.0
77.8731,656.0
77.9256,590.0
77.9781,582.0
78.0306,563.0
78.0831,544.0
78.1357,598.0
78.1882,611.0
78.2407,627.0
78.2932,599.0
78.3458,586.0
78.3983,563.0
78.4508,608.0
78.5033,590.0
78.5558,554.0
78.6084,559.0
78.6609,545.0
78.7134,594.0
78.7659,571.0
78.8184,600.0
78.871,576.0
78.9235,551.0
78.976,554.0
79.0285,612.0
79.081,605.0
79.1336,565.0
79.1861,550.0
79.2386,564.0
79.2911,576.0
79.3437,561.0
79.3962,595.0
79.4487,565.0
79.5012,571.0
79.5537,614.0
79.6063,598.0
79.6588,528.0
79.7113,560.0
79.7638,563.0
79.8163,572.0
79.8689,567.0
79.9214,580.0
79.9739,572.0